 N   L   xi       rms      A rms/a 
100 0.50 2 0.0058 12.9684 0.0004 
100 0.50 2 0.0116 25.9368 0.0004 
100 0.50 2 0.0232 51.8736 0.0004 
100 0.50 2 0.0463 103.7472 0.0004 
100 0.50 2 0.0927 207.4944 0.0004 
100 0.50 4 3.0483 36.6802 0.0831 
100 0.50 4 6.0966 73.3603 0.0831 
100 0.50 4 12.1932 146.7207 0.0831 
100 0.50 4 24.3865 293.4414 0.0831 
100 0.50 4 48.7730 586.8827 0.0831 
100 0.50 6 8.0707 67.3858 0.1198 
100 0.50 6 16.1414 134.7715 0.1198 
100 0.50 6 32.2829 269.5431 0.1198 
100 0.50 6 64.5658 539.0862 0.1198 
100 0.50 6 129.1316 1078.1724 0.1198 
100 0.50 8 11.7272 103.7472 0.1130 
100 0.50 8 23.4544 207.4944 0.1130 
100 0.50 8 46.9087 414.9887 0.1130 
100 0.50 8 93.8174 829.9775 0.1130 
100 0.50 8 187.6348 1659.9550 0.1130 
100 0.50 10 14.4302 144.9911 0.0995 
100 0.50 10 28.8605 289.9822 0.0995 
100 0.50 10 57.7210 579.9644 0.0995 
100 0.50 10 115.4419 1159.9288 0.0995 
100 0.50 10 230.8838 2319.8576 0.0995 
100 0.50 12 16.6311 190.5958 0.0873 
100 0.50 12 33.2622 381.1915 0.0873 
100 0.50 12 66.5243 762.3830 0.0873 
100 0.50 12 133.0487 1524.7660 0.0873 
100 0.50 12 266.0973 3049.5321 0.0873 
100 1.00 2 1.9661 8.7678 0.2242 
100 1.00 2 3.9322 17.5356 0.2242 
100 1.00 2 7.8644 35.0711 0.2242 
100 1.00 2 15.7288 70.1422 0.2242 
100 1.00 2 31.4576 140.2845 0.2242 
100 1.00 4 7.5477 24.7990 0.3044 
100 1.00 4 15.0953 49.5981 0.3044 
100 1.00 4 30.1906 99.1961 0.3044 
100 1.00 4 60.3812 198.3922 0.3044 
100 1.00 4 120.7625 396.7845 0.3044 
100 1.00 6 10.5282 45.5587 0.2311 
100 1.00 6 21.0563 91.1175 0.2311 
100 1.00 6 42.1126 182.2349 0.2311 
100 1.00 6 84.2252 364.4698 0.2311 
100 1.00 6 168.4504 728.9396 0.2311 
100 1.00 8 12.7358 70.1422 0.1816 
100 1.00 8 25.4716 140.2845 0.1816 
100 1.00 8 50.9432 280.5690 0.1816 
100 1.00 8 101.8863 561.1380 0.1816 
100 1.00 8 203.7726 1122.2760 0.1816 
100 1.00 10 14.7350 98.0268 0.1503 
100 1.00 10 29.4699 196.0535 0.1503 
100 1.00 10 58.9399 392.1071 0.1503 
100 1.00 10 117.8797 784.2142 0.1503 
100 1.00 10 235.7595 1568.4284 0.1503 
100 1.00 12 16.6838 128.8595 0.1295 
100 1.00 12 33.3677 257.7191 0.1295 
100 1.00 12 66.7354 515.4382 0.1295 
100 1.00 12 133.4707 1030.8763 0.1295 
100 1.00 12 266.9415 2061.7526 0.1295 
100 1.50 2 3.9348 7.7407 0.5083 
100 1.50 2 7.8695 15.4813 0.5083 
100 1.50 2 15.7390 30.9626 0.5083 
100 1.50 2 31.4781 61.9252 0.5083 
100 1.50 2 62.9561 123.8504 0.5083 
100 1.50 4 6.7825 21.8939 0.3098 
100 1.50 4 13.5650 43.7877 0.3098 
100 1.50 4 27.1300 87.5755 0.3098 
100 1.50 4 54.2601 175.1510 0.3098 
100 1.50 4 108.5202 350.3019 0.3098 
100 1.50 6 8.5493 40.2216 0.2126 
100 1.50 6 17.0986 80.4432 0.2126 
100 1.50 6 34.1972 160.8864 0.2126 
100 1.50 6 68.3944 321.7729 0.2126 
100 1.50 6 136.7888 643.5458 0.2126 
100 1.50 8 10.3901 61.9252 0.1678 
100 1.50 8 20.7802 123.8504 0.1678 
100 1.50 8 41.5604 247.7009 0.1678 
100 1.50 8 83.1209 495.4018 0.1678 
100 1.50 8 166.2418 990.8035 0.1678 
100 1.50 10 12.3555 86.5431 0.1428 
100 1.50 10 24.7111 173.0862 0.1428 
100 1.50 10 49.4222 346.1725 0.1428 
100 1.50 10 98.8443 692.3450 0.1428 
100 1.50 10 197.6887 1384.6900 0.1428 
100 1.50 12 14.4061 113.7639 0.1266 
100 1.50 12 28.8122 227.5278 0.1266 
100 1.50 12 57.6245 455.0556 0.1266 
100 1.50 12 115.2490 910.1111 0.1266 
100 1.50 12 230.4980 1820.2223 0.1266 
100 2.00 2 2.9012 6.0295 0.4812 
100 2.00 2 5.8025 12.0590 0.4812 
100 2.00 2 11.6050 24.1180 0.4812 
100 2.00 2 23.2100 48.2360 0.4812 
100 2.00 2 46.4200 96.4720 0.4812 
100 2.00 4 4.8332 17.0540 0.2834 
100 2.00 4 9.6665 34.1080 0.2834 
100 2.00 4 19.3330 68.2160 0.2834 
100 2.00 4 38.6660 136.4320 0.2834 
100 2.00 4 77.3320 272.8641 0.2834 
100 2.00 6 6.5785 31.3302 0.2100 
100 2.00 6 13.1570 62.6604 0.2100 
100 2.00 6 26.3140 125.3208 0.2100 
100 2.00 6 52.6280 250.6417 0.2100 
100 2.00 6 105.2559 501.2833 0.2100 
100 2.00 8 8.4307 48.2360 0.1748 
100 2.00 8 16.8614 96.4720 0.1748 
100 2.00 8 33.7228 192.9441 0.1748 
100 2.00 8 67.4457 385.8881 0.1748 
100 2.00 8 134.8914 771.7762 0.1748 
100 2.00 10 10.3582 67.4119 0.1537 
100 2.00 10 20.7165 134.8238 0.1537 
100 2.00 10 41.4330 269.6475 0.1537 
100 2.00 10 82.8660 539.2950 0.1537 
100 2.00 10 165.7319 1078.5900 0.1537 
100 2.00 12 12.3389 88.6152 0.1392 
100 2.00 12 24.6777 177.2304 0.1392 
100 2.00 12 49.3554 354.4609 0.1392 
100 2.00 12 98.7108 708.9217 0.1392 
100 2.00 12 197.4217 1417.8434 0.1392 
